Time,Temp
[s],[K]
0,298.15
1,298.15
2,298.15
3.01,298.15
4.01,298.15
5.01,298.15
6.01,298.15
7.01,298.15
8.01,298.15
9.01,298.15
10.01,298.151
11.01,298.151
12.01,298.153
13.01,298.157
14.01,298.163
15.01,298.174
16.01,298.19
17.01,298.214
18,298.248
19,298.294
20,298.356
21,298.435
22,298.534
23,298.656
24,298.804
25,298.979
26,299.184
27,299.421
28,299.692
29,299.999
30,300.344
31,300.727
32,301.15
33,301.614
34,302.121
35,302.669
36,303.262
37,303.898
38,304.578
39,305.302
40,306.071
41,306.885
42,307.744
43,308.652
44.01,309.615
45.01,310.629
46.01,311.684
47.01,312.783
48.01,313.917
49.01,315.082
50.01,316.274
51.01,317.495
52.01,318.743
53.01,320.017
54.01,321.317
55.01,322.641
56.01,323.988
57.01,325.357
58.01,326.749
59.01,328.162
60.01,329.596
61.01,331.05
62.01,332.524
63.01,334.017
64.01,335.527
65.01,337.053
66.01,338.594
67.01,340.15
68.01,341.72
69.01,343.302
70.01,344.897
71.01,346.502
72.01,348.118
73,349.735
74,351.362
75,353.005
76,354.656
77,356.314
78,357.979
79,359.65
80,361.327
81,363.009
82,364.696
83,366.387
84,368.082
85,369.781
86,371.483
87,373.188
88,374.896
89,376.605
90,378.317
91,380.03
92,381.745
93,383.461
94,385.179
95,386.896
96,388.615
97,390.334
98,392.053
99,393.773
100,395.492
101,397.211
102,398.93
103,400.649
104,402.366
105,404.084
106,405.8
107,407.516
108,409.231
109,410.945
110,412.657
111,414.369
112,416.082
113,417.793
114,419.504
115,421.213
116,422.922
117,424.629
118,426.334
119,428.038
120,429.741
121,431.442
122,433.142
123,434.841
124,436.538
125,438.233
126,439.927
127,441.619
128,443.31
129,444.999
130,446.687
131,448.372
132,450.057
133,451.739
134,453.42
135,455.1
136,456.777
137,458.453
138,460.128
139,461.8
140,463.471
141,465.141
142,466.808
143,468.474
144,470.138
145,471.8
146,473.46
147,475.118
148,476.774
149,478.428
150,480.081
151,481.732
152,483.38
153,485.026
154,486.67
155,488.313
156,489.952
157,491.59
158,493.226
159,494.859
160.01,496.498
161.01,498.134
162.01,499.76
163.01,501.383
164.01,503.003
165.01,504.621
166.01,506.235
167.01,507.846
168.01,509.455
169.01,511.06
170.01,512.663
171.01,514.262
172.01,515.858
173.01,517.45
174.01,519.04
175.01,520.626
176.01,522.208
177.01,523.786
178.01,525.361
179.01,526.931
180.01,528.496
181.01,530.06
182.01,531.621
183.01,533.176
184.01,534.728
185.01,536.276
186.01,537.818
187.01,539.356
188.01,540.89
189.01,542.419
190.01,543.943
191.01,545.462
192.01,546.975
193.01,548.483
194.01,549.986
195.01,551.483
196.01,552.973
197.01,554.458
198.01,555.936
199.01,557.408
200.01,558.873
201.01,560.331
202.01,561.783
203.01,563.229
204.01,564.667
205.01,566.098
206.01,567.523
207.01,568.941
208.01,570.352
209.01,571.756
210.01,573.153
211.01,574.544
212.01,575.927
213.01,577.305
214.01,578.676
215.01,580.041
216.01,581.4
217.01,582.755
218.01,584.104
219.01,585.448
220.01,586.788
221.01,588.123
222.01,589.455
223.01,590.783
224.01,592.108
225.01,593.43
226.01,594.752
227.01,596.073
228.01,597.394
229.01,598.715
230.01,600.037
231.01,601.358
232.01,602.682
233.01,604.008
234.01,605.337
235.01,606.672
236.01,608.012
237.01,609.36
238.01,610.715
239.01,612.079
240.01,613.453
241.01,614.839
242.01,616.236
243.01,617.646
244.01,619.069
245.01,620.506
246.01,621.962
247.01,623.436
248.01,624.927
249.01,626.436
250.01,627.963
251.01,629.509
252.01,631.077
253.01,632.668
254.01,634.289
255.01,635.938
256.01,637.614
257.01,639.315
258.01,641.051
259.01,642.826
260.01,644.639
261.01,646.483
262.01,648.358
263.01,650.264
264.01,652.209
265.01,654.196
266.01,656.238
267.01,658.339
268.01,660.482
269.01,662.659
270.01,664.879
271.01,667.151
272.01,669.487
273.01,671.897
274.01,674.361
275.01,676.858
276.01,679.406
277.01,682.049
278.01,684.803
279.01,687.593
280.01,690.405
281.01,693.298
282.01,696.284
283.01,699.365
284.01,702.622
285.01,706.058
286.01,709.496
287.01,713.064
288.01,717.05
289.01,721.472
290.01,726.193
291.01,731.57
292.01,738.05
293.01,745.972
294.01,756.411
295.01,770.684
296.01,790.01
297.01,815.026
298.01,837.406
299.01,844.617
300.01,848.851
301.01,851.851
302.01,854.217
303.01,856.219
304.01,857.885
305.01,859.311
306.01,860.557
307.01,861.636
308.01,862.613
309.01,863.505
310.01,864.365
311.01,865.116
312.01,865.82
313.01,866.502
314.01,867.152
315.01,867.766
316.01,868.294
317.01,868.781
318.01,869.257
319.01,869.726
320.01,870.141
321.01,870.487
322.01,870.85
323.01,871.223
324.01,871.609
325.01,871.962
326.01,872.217
327.01,872.564
328.01,872.888
329.01,873.165
330.01,873.419
331.01,873.706
332.01,874.037
333.01,874.309
334.01,874.761
335.01,874.741
336.01,874.979
337.01,875.244
338.01,875.475
339.01,875.677
340.01,875.896
341.01,876.125
342.01,876.312
343.01,876.518
344.01,876.769
345.01,877.008
346.01,877.275
347.01,877.475
348.01,877.559
349.01,877.719
350.01,877.942
351.01,878.111
352.01,878.279
353.01,878.416
354.01,878.57
355.01,878.714
356.01,878.857
357.01,878.989
358.01,879.108
359.01,879.267
360.01,879.414
361.01,879.549
362.01,879.649
363.01,879.727
364.01,879.835
365.01,879.947
366.01,880.043
367.01,880.135
368.01,880.275
369.01,880.467
370.01,880.695
371.01,880.865
372.01,880.941
373.01,881.099
374.01,881.256
375.01,881.352
376.01,881.437
377.01,881.63
378.01,881.811
379.01,881.936
380.01,882.019
381.01,882.067
382.01,882.156
383.01,882.299
384.01,882.377
385.01,882.446
386.01,882.569
387.01,882.685
388.01,882.864
389.01,883.007
390.01,883.099
391.01,883.204
392.01,883.322
393.01,883.437
394.01,883.512
395.01,883.516
396.01,883.583
397.01,883.7
398.01,883.831
399.01,883.941
400.01,884.049
401.01,884.174
402.01,884.288
403.01,884.39
404.01,884.473
405.01,884.538
406.01,884.611
407.01,884.715
408.01,884.755
409.01,884.831
410.01,884.977
411.01,885.08
412.01,885.126
413.01,885.202
414.01,885.324
415.01,885.462
416.01,885.538
417.01,885.557
418.01,885.634
419.01,885.762
420.01,885.884
421.01,885.988
422.01,886.057
423.01,886.111
424.01,886.187
425.01,886.27
426.01,886.353
427.01,886.433
428.01,886.492
429.01,886.526
430.01,886.547
431.01,886.656
432.01,886.701
433.01,886.79
434.01,886.964
435.01,887.048
436.01,887.068
437.01,887.148
438.01,887.189
439.01,887.229
440.01,887.349
441.01,887.475
442.01,887.523
443.01,887.609
444.01,887.69
445.01,887.807
446.01,887.873
447.01,887.906
448.01,887.905
449.01,887.962
450.01,888.094
451.01,888.156
452.01,888.162
453.01,888.207
454.01,888.231
455.01,888.304
456.01,888.458
457.01,888.616
458.01,888.736
459.01,888.814
460.01,888.869
461.01,888.918
462.01,888.961
463.01,889.007
464.01,889.087
465.01,889.176
466.01,889.243
467.01,889.256
468.01,889.269
469.01,889.362
470.01,889.484
471.01,889.571
472.01,889.629
473.01,889.718
474.01,889.805
475.01,889.87
476.01,889.874
477.01,889.858
478.01,889.977
479.01,890.09
480.01,890.17
481.01,890.262
482.01,890.318
483.01,890.37
484.01,890.419
485.01,890.531
486.01,890.619
487.01,890.696
488.01,890.757
489.01,890.77
490.01,890.838
491.01,890.913
492.01,890.965
493.01,891.006
494.01,890.991
495.01,891.008
496.01,891.064
497.01,891.163
498.01,891.261
499.01,891.282
500,891.401
